{
  "resourceType" : "Bundle",
  "id" : "ContinuaBundleWithDevice",
  "type" : "transaction",
  "entry" : [{
    "fullUrl" : "Patient/Poul",
    "resource" : {
      "resourceType" : "Patient",
      "id" : "Poul",
      "meta" : {
        "profile" : ["http://hl7.dk/fhir/core/StructureDefinition/dk-core-patient",
        "http://hl7.org/fhir/uv/phd/StructureDefinition/PhdPatient"]
      },
      "text" : {
        "status" : "generated",
        "div" : "<div xmlns=\"http://www.w3.org/1999/xhtml\"><p><b>Generated Narrative: Patient</b><a name=\"Poul\"> </a></p><div style=\"display: inline-block; background-color: #d9e0e7; padding: 6px; margin: 4px; border: 1px solid #8da1b4; border-radius: 5px; line-height: 60%\"><p style=\"margin-bottom: 0px\">Resource Patient &quot;Poul&quot; </p><p style=\"margin-bottom: 0px\">Profiles: <a href=\"StructureDefinition-dk-core-patient.html\">Danish Core Patient Profile</a>, <a href=\"http://hl7.org/fhir/uv/phd/STU1/StructureDefinition-PhdPatient.html\">PhdPatient</a></p></div><p><b>identifier</b>: National unique individual identifier:\u00a03001749995</p><p><b>name</b>: Poul Hansen </p></div>"
      },
      "identifier" : [{
        "type" : {
          "coding" : [{
            "system" : "http://terminology.hl7.org/CodeSystem/v2-0203",
            "code" : "NI"
          }]
        },
        "system" : "urn:oid:1.2.208.176.1.2",
        "value" : "3001749995"
      }],
      "name" : [{
        "family" : "Hansen",
        "given" : ["Poul"]
      }]
    },
    "request" : {
      "method" : "POST",
      "url" : "Patient",
      "ifNoneExist" : "identifier=urn:oid:1.2.208.176.1.2|3001749995"
    }
  },
  {
    "fullUrl" : "Device/Telma.FEEDDADADEADBEEF",
    "resource" : {
      "resourceType" : "Device",
      "id" : "Telma.FEEDDADADEADBEEF",
      "meta" : {
        "profile" : ["http://hl7.org/fhir/uv/phd/StructureDefinition/PhgDevice"]
      },
      "text" : {
        "status" : "generated",
        "div" : "<div xmlns=\"http://www.w3.org/1999/xhtml\"><p><b>Generated Narrative: Device</b><a name=\"Telma.FEEDDADADEADBEEF\"> </a></p><div style=\"display: inline-block; background-color: #d9e0e7; padding: 6px; margin: 4px; border: 1px solid #8da1b4; border-radius: 5px; line-height: 60%\"><p style=\"margin-bottom: 0px\">Resource Device &quot;Telma.FEEDDADADEADBEEF&quot; </p><p style=\"margin-bottom: 0px\">Profile: <a href=\"http://hl7.org/fhir/uv/phd/STU1/StructureDefinition-PhgDevice.html\">PhgDevice</a></p></div><p><b>identifier</b>: IEEE 11073 System Identifier:\u00a0FE-ED-DA-DA-DE-AD-BE-EF</p><p><b>manufacturer</b>: Trifork</p><p><b>modelNumber</b>: Telma (Android)</p><p><b>type</b>: MDC_MOC_VMS_MDS_AHD: Continua compliant gateway <span style=\"background: LightGoldenRodYellow; margin: 4px; border: 1px solid khaki\"> (<a href=\"http://terminology.hl7.org/3.1.0/CodeSystem-v3-mdc.html\">ISO 11073-10101 Health informatics - Point-of-care</a>#531981 &quot;MDC_MOC_VMS_MDS_AHD&quot;)</span></p><blockquote><p><b>version</b></p><p><b>type</b>: MDC_REG_CERT_DATA_CONTINUA_VERSION: Continua version <span style=\"background: LightGoldenRodYellow; margin: 4px; border: 1px solid khaki\"> (<a href=\"http://terminology.hl7.org/3.1.0/CodeSystem-v3-mdc.html\">ISO 11073-10101 Health informatics - Point-of-care</a>#532352 &quot;MDC_REG_CERT_DATA_CONTINUA_VERSION&quot;)</span></p><p><b>value</b>: 7.0</p></blockquote><blockquote><p><b>version</b></p><p><b>type</b>: MDC_ID_PROD_SPEC_HW: Hardware version <span style=\"background: LightGoldenRodYellow; margin: 4px; border: 1px solid khaki\"> (<a href=\"http://terminology.hl7.org/3.1.0/CodeSystem-v3-mdc.html\">ISO 11073-10101 Health informatics - Point-of-care</a>#531974 &quot;MDC_ID_PROD_SPEC_HW&quot;)</span></p><p><b>value</b>: Samsung Tab S7+ (SM-T970)</p></blockquote><blockquote><p><b>version</b></p><p><b>type</b>: MDC_ID_PROD_SPEC_SW: Software version <span style=\"background: LightGoldenRodYellow; margin: 4px; border: 1px solid khaki\"> (<a href=\"http://terminology.hl7.org/3.1.0/CodeSystem-v3-mdc.html\">ISO 11073-10101 Health informatics - Point-of-care</a>#531975 &quot;MDC_ID_PROD_SPEC_SW&quot;)</span></p><p><b>value</b>: 1.2.0 (build 2662)</p></blockquote><blockquote><p><b>version</b></p><p><b>type</b>: MDC_ID_PROD_SPEC_FW: Firmware version <span style=\"background: LightGoldenRodYellow; margin: 4px; border: 1px solid khaki\"> (<a href=\"http://terminology.hl7.org/3.1.0/CodeSystem-v3-mdc.html\">ISO 11073-10101 Health informatics - Point-of-care</a>#531976 &quot;MDC_ID_PROD_SPEC_FW&quot;)</span></p><p><b>value</b>: Android 12 (API 31)</p></blockquote><blockquote><p><b>property</b></p><p><b>type</b>: MDC_REG_CERT_DATA_CONTINUA_CERT_DEV_LIST: Continua certified device list <span style=\"background: LightGoldenRodYellow; margin: 4px; border: 1px solid khaki\"> (<a href=\"http://terminology.hl7.org/3.1.0/CodeSystem-v3-mdc.html\">ISO 11073-10101 Health informatics - Point-of-care</a>#532353 &quot;MDC_REG_CERT_DATA_CONTINUA_CERT_DEV_LIST&quot;)</span></p><p><b>valueCode</b>: BluetoothLE: Weighing scale <span style=\"background: LightGoldenRodYellow; margin: 4px; border: 1px solid khaki\"> (<a href=\"http://hl7.org/fhir/uv/phd/STU1/CodeSystem-ContinuaPHD.html\">ContinuaPHD</a>#32783)</span>, BluetoothLE: Blood pressure monitor <span style=\"background: LightGoldenRodYellow; margin: 4px; border: 1px solid khaki\"> (<a href=\"http://hl7.org/fhir/uv/phd/STU1/CodeSystem-ContinuaPHD.html\">ContinuaPHD</a>#32775)</span>, BluetoothLE: Pulse oximeter <span style=\"background: LightGoldenRodYellow; margin: 4px; border: 1px solid khaki\"> (<a href=\"http://hl7.org/fhir/uv/phd/STU1/CodeSystem-ContinuaPHD.html\">ContinuaPHD</a>#32772)</span></p></blockquote><blockquote><p><b>property</b></p><p><b>type</b>: MDC_REG_CERT_DATA_CONTINUA_AHD_CERT_LIST: Continua certified Health&amp;Fitness interfaces list <span style=\"background: LightGoldenRodYellow; margin: 4px; border: 1px solid khaki\"> (<a href=\"http://terminology.hl7.org/3.1.0/CodeSystem-v3-mdc.html\">ISO 11073-10101 Health informatics - Point-of-care</a>#532355 &quot;MDC_REG_CERT_DATA_CONTINUA_AHD_CERT_LIST&quot;)</span></p><p><b>valueCode</b>: observation-upload-fhir: FHIR resource upload <span style=\"background: LightGoldenRodYellow; margin: 4px; border: 1px solid khaki\"> (<a href=\"http://hl7.org/fhir/uv/phd/STU1/CodeSystem-ContinuaHFS.html\">ContinuaHFS</a>#7 &quot;observation-upload-fhir&quot;)</span></p></blockquote><blockquote><p><b>property</b></p><p><b>type</b>: MDC_TIME_SYNC_PROTOCOL: Time synchronization protocol <span style=\"background: LightGoldenRodYellow; margin: 4px; border: 1px solid khaki\"> (<a href=\"http://terminology.hl7.org/3.1.0/CodeSystem-v3-mdc.html\">ISO 11073-10101 Health informatics - Point-of-care</a>#68220 &quot;MDC_TIME_SYNC_PROTOCOL&quot;)</span></p><p><b>valueCode</b>: MDC_TIME_SYNC_NTPV4: NTPV4 time synchronization <span style=\"background: LightGoldenRodYellow; margin: 4px; border: 1px solid khaki\"> (<a href=\"http://terminology.hl7.org/3.1.0/CodeSystem-v3-mdc.html\">ISO 11073-10101 Health informatics - Point-of-care</a>#532226 &quot;MDC_TIME_SYNC_NTPV4&quot;)</span></p></blockquote><blockquote><p><b>property</b></p><p><b>type</b>: regulation-status <span style=\"background: LightGoldenRodYellow; margin: 4px; border: 1px solid khaki\"> (<a href=\"http://hl7.org/fhir/uv/phd/STU1/CodeSystem-ASN1ToHL7.html\">ASN1ToHL7</a>#532354.0)</span></p><p><b>valueCode</b>: Device is NOT regulated <span style=\"background: LightGoldenRodYellow; margin: 4px; border: 1px solid khaki\"> (<a href=\"http://hl7.org/fhir/R4/v2/0136/index.html\">v2 Y/N Indicator</a>#Y)</span></p></blockquote></div>"
      },
      "identifier" : [{
        "type" : {
          "coding" : [{
            "system" : "http://hl7.org/fhir/uv/phd/CodeSystem/ContinuaDeviceIdentifiers",
            "code" : "SYSID",
            "display" : "IEEE 11073 System Identifier"
          }]
        },
        "system" : "urn:oid:1.2.840.10004.1.1.1.0.0.1.0.0.1.2680",
        "value" : "FE-ED-DA-DA-DE-AD-BE-EF"
      }],
      "manufacturer" : "Trifork",
      "modelNumber" : "Telma (Android)",
      "type" : {
        "coding" : [{
          "system" : "urn:iso:std:iso:11073:10101",
          "code" : "531981",
          "display" : "MDC_MOC_VMS_MDS_AHD"
        }],
        "text" : "MDC_MOC_VMS_MDS_AHD: Continua compliant gateway"
      },
      "version" : [{
        "type" : {
          "coding" : [{
            "system" : "urn:iso:std:iso:11073:10101",
            "code" : "532352",
            "display" : "MDC_REG_CERT_DATA_CONTINUA_VERSION"
          }],
          "text" : "MDC_REG_CERT_DATA_CONTINUA_VERSION: Continua version"
        },
        "value" : "7.0"
      },
      {
        "type" : {
          "coding" : [{
            "system" : "urn:iso:std:iso:11073:10101",
            "code" : "531974",
            "display" : "MDC_ID_PROD_SPEC_HW"
          }],
          "text" : "MDC_ID_PROD_SPEC_HW: Hardware version"
        },
        "value" : "Samsung Tab S7+ (SM-T970)"
      },
      {
        "type" : {
          "coding" : [{
            "system" : "urn:iso:std:iso:11073:10101",
            "code" : "531975",
            "display" : "MDC_ID_PROD_SPEC_SW"
          }],
          "text" : "MDC_ID_PROD_SPEC_SW: Software version"
        },
        "value" : "1.2.0 (build 2662)"
      },
      {
        "type" : {
          "coding" : [{
            "system" : "urn:iso:std:iso:11073:10101",
            "code" : "531976",
            "display" : "MDC_ID_PROD_SPEC_FW"
          }],
          "text" : "MDC_ID_PROD_SPEC_FW: Firmware version"
        },
        "value" : "Android 12 (API 31)"
      }],
      "property" : [{
        "type" : {
          "coding" : [{
            "system" : "urn:iso:std:iso:11073:10101",
            "code" : "532353",
            "display" : "MDC_REG_CERT_DATA_CONTINUA_CERT_DEV_LIST"
          }],
          "text" : "MDC_REG_CERT_DATA_CONTINUA_CERT_DEV_LIST: Continua certified device list"
        },
        "valueCode" : [{
          "coding" : [{
            "system" : "http://hl7.org/fhir/uv/phd/CodeSystem/ContinuaPHD",
            "code" : "32783"
          }],
          "text" : "BluetoothLE: Weighing scale"
        },
        {
          "coding" : [{
            "system" : "http://hl7.org/fhir/uv/phd/CodeSystem/ContinuaPHD",
            "code" : "32775"
          }],
          "text" : "BluetoothLE: Blood pressure monitor"
        },
        {
          "coding" : [{
            "system" : "http://hl7.org/fhir/uv/phd/CodeSystem/ContinuaPHD",
            "code" : "32772"
          }],
          "text" : "BluetoothLE: Pulse oximeter"
        }]
      },
      {
        "type" : {
          "coding" : [{
            "system" : "urn:iso:std:iso:11073:10101",
            "code" : "532355",
            "display" : "MDC_REG_CERT_DATA_CONTINUA_AHD_CERT_LIST"
          }],
          "text" : "MDC_REG_CERT_DATA_CONTINUA_AHD_CERT_LIST: Continua certified Health&Fitness interfaces list"
        },
        "valueCode" : [{
          "coding" : [{
            "system" : "http://hl7.org/fhir/uv/phd/CodeSystem/ContinuaHFS",
            "code" : "7",
            "display" : "observation-upload-fhir"
          }],
          "text" : "observation-upload-fhir: FHIR resource upload"
        }]
      },
      {
        "type" : {
          "coding" : [{
            "system" : "urn:iso:std:iso:11073:10101",
            "code" : "68220",
            "display" : "MDC_TIME_SYNC_PROTOCOL"
          }],
          "text" : "MDC_TIME_SYNC_PROTOCOL: Time synchronization protocol"
        },
        "valueCode" : [{
          "coding" : [{
            "system" : "urn:iso:std:iso:11073:10101",
            "code" : "532226",
            "display" : "MDC_TIME_SYNC_NTPV4"
          }],
          "text" : "MDC_TIME_SYNC_NTPV4: NTPV4 time synchronization"
        }]
      },
      {
        "type" : {
          "coding" : [{
            "system" : "http://hl7.org/fhir/uv/phd/CodeSystem/ASN1ToHL7",
            "code" : "532354.0"
          }],
          "text" : "regulation-status"
        },
        "valueCode" : [{
          "coding" : [{
            "system" : "http://terminology.hl7.org/CodeSystem/v2-0136",
            "code" : "Y"
          }],
          "text" : "Device is NOT regulated"
        }]
      }]
    },
    "request" : {
      "method" : "POST",
      "url" : "Device",
      "ifNoneExist" : "identifier=urn:oid:1.2.840.10004.1.1.1.0.0.1.0.0.1.2680|FE-ED-DA-DA-DE-AD-BE-EF"
    }
  },
  {
    "fullUrl" : "Device/BPMonitor.C4F312FFFE53F2C9",
    "resource" : {
      "resourceType" : "Device",
      "id" : "BPMonitor.C4F312FFFE53F2C9",
      "meta" : {
        "profile" : ["http://hl7.org/fhir/uv/phd/StructureDefinition/PhdDevice"]
      },
      "text" : {
        "status" : "generated",
        "div" : "<div xmlns=\"http://www.w3.org/1999/xhtml\"><p><b>Generated Narrative: Device</b><a name=\"BPMonitor.C4F312FFFE53F2C9\"> </a></p><div style=\"display: inline-block; background-color: #d9e0e7; padding: 6px; margin: 4px; border: 1px solid #8da1b4; border-radius: 5px; line-height: 60%\"><p style=\"margin-bottom: 0px\">Resource Device &quot;BPMonitor.C4F312FFFE53F2C9&quot; </p><p style=\"margin-bottom: 0px\">Profile: <a href=\"http://hl7.org/fhir/uv/phd/STU1/StructureDefinition-PhdDevice.html\">PhdDevice</a></p></div><p><b>identifier</b>: Ieee 11073 System Identifier:\u00a0C4-F3-12-FF-FE-53-F2-C9, Bluetooth MAC address:\u00a0<a href=\"http://terminology.hl7.org/3.1.0/NamingSystem-bluetooth-address-identifier.html\">#</a>C4-F3-12-53-F2-C9</p><p><b>manufacturer</b>: A&amp;D Medical </p><p><b>serialNumber</b>: 5181000124</p><p><b>modelNumber</b>: UA-651BLE </p><p><b>type</b>: MDC_MOC_VMS_MDS_SIMP: Personal health device <span style=\"background: LightGoldenRodYellow; margin: 4px; border: 1px solid khaki\"> (<a href=\"http://terminology.hl7.org/3.1.0/CodeSystem-v3-mdc.html\">ISO 11073-10101 Health informatics - Point-of-care</a>#65573 &quot;MDC_MOC_VMS_MDS_SIMP&quot;)</span></p><h3>Specializations</h3><table class=\"grid\"><tr><td style=\"display: none\">-</td><td><b>SystemType</b></td><td><b>Version</b></td></tr><tr><td style=\"display: none\">*</td><td>MDC_DEV_SPEC_PROFILE_BP: Blood Pressure meter <span style=\"background: LightGoldenRodYellow; margin: 4px; border: 1px solid khaki\"> (<a href=\"http://terminology.hl7.org/3.1.0/CodeSystem-v3-mdc.html\">ISO 11073-10101 Health informatics - Point-of-care</a>#528391 &quot;MDC_DEV_SPEC_PROFILE_BP&quot;)</span></td><td>1</td></tr></table><blockquote><p><b>version</b></p><p><b>type</b>: MDC_REG_CERT_DATA_CONTINUA_VERSION: Continua version <span style=\"background: LightGoldenRodYellow; margin: 4px; border: 1px solid khaki\"> (<a href=\"http://terminology.hl7.org/3.1.0/CodeSystem-v3-mdc.html\">ISO 11073-10101 Health informatics - Point-of-care</a>#532352 &quot;MDC_REG_CERT_DATA_CONTINUA_VERSION&quot;)</span></p><p><b>value</b>: 4.1</p></blockquote><blockquote><p><b>version</b></p><p><b>type</b>: MDC_ID_PROD_SPEC_HW: Hardware version <span style=\"background: LightGoldenRodYellow; margin: 4px; border: 1px solid khaki\"> (<a href=\"http://terminology.hl7.org/3.1.0/CodeSystem-v3-mdc.html\">ISO 11073-10101 Health informatics - Point-of-care</a>#531974 &quot;MDC_ID_PROD_SPEC_HW&quot;)</span></p><p><b>value</b>: 0.00</p></blockquote><blockquote><p><b>version</b></p><p><b>type</b>: MDC_ID_PROD_SPEC_SW: Software version <span style=\"background: LightGoldenRodYellow; margin: 4px; border: 1px solid khaki\"> (<a href=\"http://terminology.hl7.org/3.1.0/CodeSystem-v3-mdc.html\">ISO 11073-10101 Health informatics - Point-of-care</a>#531975 &quot;MDC_ID_PROD_SPEC_SW&quot;)</span></p><p><b>value</b>: 0.00</p></blockquote><blockquote><p><b>version</b></p><p><b>type</b>: MDC_ID_PROD_SPEC_FW: Firmware version <span style=\"background: LightGoldenRodYellow; margin: 4px; border: 1px solid khaki\"> (<a href=\"http://terminology.hl7.org/3.1.0/CodeSystem-v3-mdc.html\">ISO 11073-10101 Health informatics - Point-of-care</a>#531976 &quot;MDC_ID_PROD_SPEC_FW&quot;)</span></p><p><b>value</b>: BLP009_02_005 </p></blockquote><blockquote><p><b>property</b></p><p><b>type</b>: MDC_REG_CERT_DATA_CONTINUA_CERT_DEV_LIST: Continua certified device list <span style=\"background: LightGoldenRodYellow; margin: 4px; border: 1px solid khaki\"> (<a href=\"http://terminology.hl7.org/3.1.0/CodeSystem-v3-mdc.html\">ISO 11073-10101 Health informatics - Point-of-care</a>#532353 &quot;MDC_REG_CERT_DATA_CONTINUA_CERT_DEV_LIST&quot;)</span></p><p><b>valueCode</b>: BluetoothLE: Blood pressure monitor <span style=\"background: LightGoldenRodYellow; margin: 4px; border: 1px solid khaki\"> (<a href=\"http://hl7.org/fhir/uv/phd/STU1/CodeSystem-ContinuaPHD.html\">ContinuaPHD</a>#32775)</span></p></blockquote><blockquote><p><b>property</b></p><p><b>type</b>: MDC_TIME_SYNC_PROTOCOL: Time synchronization protocol <span style=\"background: LightGoldenRodYellow; margin: 4px; border: 1px solid khaki\"> (<a href=\"http://terminology.hl7.org/3.1.0/CodeSystem-v3-mdc.html\">ISO 11073-10101 Health informatics - Point-of-care</a>#68220 &quot;MDC_TIME_SYNC_PROTOCOL&quot;)</span></p><p><b>valueCode</b>: MDC_TIME_SYNC_NONE: No time synchronization <span style=\"background: LightGoldenRodYellow; margin: 4px; border: 1px solid khaki\"> (<a href=\"http://terminology.hl7.org/3.1.0/CodeSystem-v3-mdc.html\">ISO 11073-10101 Health informatics - Point-of-care</a>#532224 &quot;MDC_TIME_SYNC_NONE&quot;)</span></p></blockquote><blockquote><p><b>property</b></p><p><b>type</b>: regulation-status <span style=\"background: LightGoldenRodYellow; margin: 4px; border: 1px solid khaki\"> (<a href=\"http://hl7.org/fhir/uv/phd/STU1/CodeSystem-ASN1ToHL7.html\">ASN1ToHL7</a>#532354.0)</span></p><p><b>valueCode</b>: Device is regulated <span style=\"background: LightGoldenRodYellow; margin: 4px; border: 1px solid khaki\"> (<a href=\"http://hl7.org/fhir/R4/v2/0136/index.html\">v2 Y/N Indicator</a>#N)</span></p></blockquote><blockquote><p><b>property</b></p><p><b>type</b>: mds-time-capab-real-time-clock <span style=\"background: LightGoldenRodYellow; margin: 4px; border: 1px solid khaki\"> (<a href=\"http://hl7.org/fhir/uv/phd/STU1/CodeSystem-ASN1ToHL7.html\">ASN1ToHL7</a>#68219.0)</span></p><p><b>valueCode</b>: Real time clock is supported <span style=\"background: LightGoldenRodYellow; margin: 4px; border: 1px solid khaki\"> (<a href=\"http://hl7.org/fhir/R4/v2/0136/index.html\">v2 Y/N Indicator</a>#Y)</span></p></blockquote><blockquote><p><b>property</b></p><p><b>type</b>: mds-time-capab-set-clock <span style=\"background: LightGoldenRodYellow; margin: 4px; border: 1px solid khaki\"> (<a href=\"http://hl7.org/fhir/uv/phd/STU1/CodeSystem-ASN1ToHL7.html\">ASN1ToHL7</a>#68219.1)</span></p><p><b>valueCode</b>: Setting the real time clock is supported <span style=\"background: LightGoldenRodYellow; margin: 4px; border: 1px solid khaki\"> (<a href=\"http://hl7.org/fhir/R4/v2/0136/index.html\">v2 Y/N Indicator</a>#Y)</span></p></blockquote></div>"
      },
      "identifier" : [{
        "type" : {
          "coding" : [{
            "system" : "http://hl7.org/fhir/uv/phd/CodeSystem/ContinuaDeviceIdentifiers",
            "code" : "SYSID",
            "display" : "Ieee 11073 System Identifier"
          }]
        },
        "system" : "urn:oid:1.2.840.10004.1.1.1.0.0.1.0.0.1.2680",
        "value" : "C4-F3-12-FF-FE-53-F2-C9"
      },
      {
        "type" : {
          "coding" : [{
            "system" : "http://hl7.org/fhir/uv/phd/CodeSystem/ContinuaDeviceIdentifiers",
            "code" : "BTMAC",
            "display" : "Bluetooth MAC address"
          }]
        },
        "system" : "http://hl7.org/fhir/sid/eui-48/bluetooth",
        "value" : "C4-F3-12-53-F2-C9"
      }],
      "manufacturer" : "A&D Medical ",
      "serialNumber" : "5181000124",
      "modelNumber" : "UA-651BLE ",
      "type" : {
        "coding" : [{
          "system" : "urn:iso:std:iso:11073:10101",
          "code" : "65573",
          "display" : "MDC_MOC_VMS_MDS_SIMP"
        }],
        "text" : "MDC_MOC_VMS_MDS_SIMP: Personal health device"
      },
      "specialization" : [{
        "systemType" : {
          "coding" : [{
            "system" : "urn:iso:std:iso:11073:10101",
            "code" : "528391",
            "display" : "MDC_DEV_SPEC_PROFILE_BP"
          }],
          "text" : "MDC_DEV_SPEC_PROFILE_BP: Blood Pressure meter"
        },
        "version" : "1"
      }],
      "version" : [{
        "type" : {
          "coding" : [{
            "system" : "urn:iso:std:iso:11073:10101",
            "code" : "532352",
            "display" : "MDC_REG_CERT_DATA_CONTINUA_VERSION"
          }],
          "text" : "MDC_REG_CERT_DATA_CONTINUA_VERSION: Continua version"
        },
        "value" : "4.1"
      },
      {
        "type" : {
          "coding" : [{
            "system" : "urn:iso:std:iso:11073:10101",
            "code" : "531974",
            "display" : "MDC_ID_PROD_SPEC_HW"
          }],
          "text" : "MDC_ID_PROD_SPEC_HW: Hardware version"
        },
        "value" : "0.00"
      },
      {
        "type" : {
          "coding" : [{
            "system" : "urn:iso:std:iso:11073:10101",
            "code" : "531975",
            "display" : "MDC_ID_PROD_SPEC_SW"
          }],
          "text" : "MDC_ID_PROD_SPEC_SW: Software version"
        },
        "value" : "0.00"
      },
      {
        "type" : {
          "coding" : [{
            "system" : "urn:iso:std:iso:11073:10101",
            "code" : "531976",
            "display" : "MDC_ID_PROD_SPEC_FW"
          }],
          "text" : "MDC_ID_PROD_SPEC_FW: Firmware version"
        },
        "value" : "BLP009_02_005 "
      }],
      "property" : [{
        "type" : {
          "coding" : [{
            "system" : "urn:iso:std:iso:11073:10101",
            "code" : "532353",
            "display" : "MDC_REG_CERT_DATA_CONTINUA_CERT_DEV_LIST"
          }],
          "text" : "MDC_REG_CERT_DATA_CONTINUA_CERT_DEV_LIST: Continua certified device list"
        },
        "valueCode" : [{
          "coding" : [{
            "system" : "http://hl7.org/fhir/uv/phd/CodeSystem/ContinuaPHD",
            "code" : "32775"
          }],
          "text" : "BluetoothLE: Blood pressure monitor"
        }]
      },
      {
        "type" : {
          "coding" : [{
            "system" : "urn:iso:std:iso:11073:10101",
            "code" : "68220",
            "display" : "MDC_TIME_SYNC_PROTOCOL"
          }],
          "text" : "MDC_TIME_SYNC_PROTOCOL: Time synchronization protocol"
        },
        "valueCode" : [{
          "coding" : [{
            "system" : "urn:iso:std:iso:11073:10101",
            "code" : "532224",
            "display" : "MDC_TIME_SYNC_NONE"
          }],
          "text" : "MDC_TIME_SYNC_NONE: No time synchronization"
        }]
      },
      {
        "type" : {
          "coding" : [{
            "system" : "http://hl7.org/fhir/uv/phd/CodeSystem/ASN1ToHL7",
            "code" : "532354.0"
          }],
          "text" : "regulation-status"
        },
        "valueCode" : [{
          "coding" : [{
            "system" : "http://terminology.hl7.org/CodeSystem/v2-0136",
            "code" : "N"
          }],
          "text" : "Device is regulated"
        }]
      },
      {
        "type" : {
          "coding" : [{
            "system" : "http://hl7.org/fhir/uv/phd/CodeSystem/ASN1ToHL7",
            "code" : "68219.0"
          }],
          "text" : "mds-time-capab-real-time-clock"
        },
        "valueCode" : [{
          "coding" : [{
            "system" : "http://terminology.hl7.org/CodeSystem/v2-0136",
            "code" : "Y"
          }],
          "text" : "Real time clock is supported"
        }]
      },
      {
        "type" : {
          "coding" : [{
            "system" : "http://hl7.org/fhir/uv/phd/CodeSystem/ASN1ToHL7",
            "code" : "68219.1"
          }],
          "text" : "mds-time-capab-set-clock"
        },
        "valueCode" : [{
          "coding" : [{
            "system" : "http://terminology.hl7.org/CodeSystem/v2-0136",
            "code" : "Y"
          }],
          "text" : "Setting the real time clock is supported"
        }]
      }]
    },
    "request" : {
      "method" : "POST",
      "url" : "Device",
      "ifNoneExist" : "identifier=urn:oid:1.2.840.10004.1.1.1.0.0.1.0.0.1.2680|C4-F3-12-FF-FE-53-F2-C9"
    }
  },
  {
    "fullUrl" : "Observation/BatteryLevel.0944",
    "resource" : {
      "resourceType" : "Observation",
      "id" : "BatteryLevel.0944",
      "meta" : {
        "profile" : ["http://hl7.dk/fhir/core/StructureDefinition/dk-core-observation",
        "http://hl7.org/fhir/uv/phd/StructureDefinition/PhdNumericObservation"]
      },
      "text" : {
        "status" : "extensions",
        "div" : "<div xmlns=\"http://www.w3.org/1999/xhtml\"><p><b>Generated Narrative: Observation</b><a name=\"BatteryLevel.0944\"> </a></p><div style=\"display: inline-block; background-color: #d9e0e7; padding: 6px; margin: 4px; border: 1px solid #8da1b4; border-radius: 5px; line-height: 60%\"><p style=\"margin-bottom: 0px\">Resource Observation &quot;BatteryLevel.0944&quot; </p><p style=\"margin-bottom: 0px\">Profiles: <a href=\"StructureDefinition-dk-core-observation.html\">Danish Core Observation Profiles</a>, <a href=\"http://hl7.org/fhir/uv/phd/STU1/StructureDefinition-PhdNumericObservation.html\">PhdNumericObservation</a></p></div><p><b>Gateway Device</b>: <a href=\"#Device_Telma.FEEDDADADEADBEEF\">See above (Device/Telma.FEEDDADADEADBEEF)</a></p><p><b>status</b>: final</p><p><b>code</b>: MDC_ATTR_VAL_BATT_CHARGE: Battery level <span style=\"background: LightGoldenRodYellow; margin: 4px; border: 1px solid khaki\"> (<a href=\"http://terminology.hl7.org/3.1.0/CodeSystem-v3-mdc.html\">ISO 11073-10101 Health informatics - Point-of-care</a>#67996 &quot;MDC_ATTR_VAL_BATT_CHARGE&quot;)</span></p><p><b>subject</b>: <a href=\"#Patient_Poul\">See above (Patient/Poul)</a></p><p><b>effective</b>: 2023-02-23 10:24:34+0100</p><p><b>performer</b>: <a href=\"#Patient_Poul\">See above (Patient/Poul)</a></p><p><b>value</b>: 95 %<span style=\"background: LightGoldenRodYellow\"> (Details: UCUM code % = '%')</span></p><p><b>device</b>: <a href=\"#Device_BPMonitor.C4F312FFFE53F2C9\">See above (Device/BPMonitor.C4F312FFFE53F2C9)</a></p></div>"
      },
      "extension" : [{
        "url" : "http://hl7.org/fhir/StructureDefinition/observation-gatewayDevice",
        "valueReference" : {
          "reference" : "Device/Telma.FEEDDADADEADBEEF"
        }
      }],
      "status" : "final",
      "code" : {
        "coding" : [{
          "system" : "urn:iso:std:iso:11073:10101",
          "code" : "67996",
          "display" : "MDC_ATTR_VAL_BATT_CHARGE"
        }],
        "text" : "MDC_ATTR_VAL_BATT_CHARGE: Battery level"
      },
      "subject" : {
        "reference" : "Patient/Poul"
      },
      "effectiveDateTime" : "2023-02-23T10:24:34.563+01:00",
      "performer" : [{
        "reference" : "Patient/Poul"
      }],
      "valueQuantity" : {
        "value" : 95,
        "system" : "http://unitsofmeasure.org",
        "code" : "%"
      },
      "device" : {
        "reference" : "Device/BPMonitor.C4F312FFFE53F2C9"
      }
    },
    "request" : {
      "method" : "POST",
      "url" : "Observation"
    }
  },
  {
    "fullUrl" : "Observation/CoincidentTimeStamp.0222",
    "resource" : {
      "resourceType" : "Observation",
      "id" : "CoincidentTimeStamp.0222",
      "meta" : {
        "profile" : ["http://hl7.dk/fhir/core/StructureDefinition/dk-core-observation",
        "http://hl7.org/fhir/uv/phd/StructureDefinition/PhdCoincidentTimeStampObservation"]
      },
      "text" : {
        "status" : "extensions",
        "div" : "<div xmlns=\"http://www.w3.org/1999/xhtml\"><p><b>Generated Narrative: Observation</b><a name=\"CoincidentTimeStamp.0222\"> </a></p><div style=\"display: inline-block; background-color: #d9e0e7; padding: 6px; margin: 4px; border: 1px solid #8da1b4; border-radius: 5px; line-height: 60%\"><p style=\"margin-bottom: 0px\">Resource Observation &quot;CoincidentTimeStamp.0222&quot; </p><p style=\"margin-bottom: 0px\">Profiles: <a href=\"StructureDefinition-dk-core-observation.html\">Danish Core Observation Profiles</a>, <a href=\"http://hl7.org/fhir/uv/phd/STU1/StructureDefinition-PhdCoincidentTimeStampObservation.html\">PhdCoincidentTimeStampObservation</a></p></div><p><b>Gateway Device</b>: <a href=\"#Device_Telma.FEEDDADADEADBEEF\">See above (Device/Telma.FEEDDADADEADBEEF)</a></p><p><b>status</b>: final</p><p><b>code</b>: MDC_ATTR_TIME_ABS: Uses Absolute time clock <span style=\"background: LightGoldenRodYellow; margin: 4px; border: 1px solid khaki\"> (<a href=\"http://terminology.hl7.org/3.1.0/CodeSystem-v3-mdc.html\">ISO 11073-10101 Health informatics - Point-of-care</a>#67975 &quot;MDC_ATTR_TIME_ABS&quot;)</span></p><p><b>subject</b>: <a href=\"#Patient_Poul\">See above (Patient/Poul)</a></p><p><b>effective</b>: 2023-02-23 10:24:34+0100</p><p><b>performer</b>: <a href=\"#Patient_Poul\">See above (Patient/Poul)</a></p><p><b>value</b>: 2023-02-23 10:24:25+0100</p><p><b>device</b>: <a href=\"#Device_BPMonitor.C4F312FFFE53F2C9\">See above (Device/BPMonitor.C4F312FFFE53F2C9)</a></p></div>"
      },
      "extension" : [{
        "url" : "http://hl7.org/fhir/StructureDefinition/observation-gatewayDevice",
        "valueReference" : {
          "reference" : "Device/Telma.FEEDDADADEADBEEF"
        }
      }],
      "status" : "final",
      "code" : {
        "coding" : [{
          "system" : "urn:iso:std:iso:11073:10101",
          "code" : "67975",
          "display" : "MDC_ATTR_TIME_ABS"
        }],
        "text" : "MDC_ATTR_TIME_ABS: Uses Absolute time clock"
      },
      "subject" : {
        "reference" : "Patient/Poul"
      },
      "effectiveDateTime" : "2023-02-23T10:24:34.467+01:00",
      "performer" : [{
        "reference" : "Patient/Poul"
      }],
      "valueDateTime" : "2023-02-23T10:24:25+01:00",
      "device" : {
        "reference" : "Device/BPMonitor.C4F312FFFE53F2C9"
      }
    },
    "request" : {
      "method" : "POST",
      "url" : "Observation"
    }
  },
  {
    "fullUrl" : "Observation/BloodPressure.Poul.643992",
    "resource" : {
      "resourceType" : "Observation",
      "id" : "BloodPressure.Poul.643992",
      "meta" : {
        "profile" : ["http://hl7.dk/fhir/core/StructureDefinition/dk-core-observation",
        "http://hl7.org/fhir/uv/phd/StructureDefinition/PhdCompoundNumericObservation",
        "http://hl7.org/fhir/StructureDefinition/vitalsigns",
        "http://hl7.org/fhir/StructureDefinition/bp"]
      },
      "text" : {
        "status" : "extensions",
        "div" : "<div xmlns=\"http://www.w3.org/1999/xhtml\"><p><b>Generated Narrative: Observation</b><a name=\"BloodPressure.Poul.643992\"> </a></p><div style=\"display: inline-block; background-color: #d9e0e7; padding: 6px; margin: 4px; border: 1px solid #8da1b4; border-radius: 5px; line-height: 60%\"><p style=\"margin-bottom: 0px\">Resource Observation &quot;BloodPressure.Poul.643992&quot; </p><p style=\"margin-bottom: 0px\">Profiles: <a href=\"StructureDefinition-dk-core-observation.html\">Danish Core Observation Profiles</a>, <a href=\"http://hl7.org/fhir/uv/phd/STU1/StructureDefinition-PhdCompoundNumericObservation.html\">PhdCompoundNumericObservation</a>, <a href=\"http://hl7.org/fhir/R4/vitalsigns.html\">Vital Signs Profile</a>, <a href=\"http://hl7.org/fhir/R4/bp.html\">Observation Blood Pressure Profile</a></p></div><p><b>Gateway Device</b>: <a href=\"#Device_Telma.FEEDDADADEADBEEF\">See above (Device/Telma.FEEDDADADEADBEEF)</a></p><p><b>identifier</b>: id:\u00a0C4F312FFFE53F2C9-3001749995-urn:oid:1.2.208.176.1.2-150020-118-266016-87-266016-99-266016-20230223T102408.00</p><p><b>status</b>: final</p><p><b>category</b>: Vital signs <span style=\"background: LightGoldenRodYellow; margin: 4px; border: 1px solid khaki\"> (<a href=\"http://terminology.hl7.org/3.1.0/CodeSystem-observation-category.html\">Observation Category Codes</a>#vital-signs)</span></p><p><b>code</b>: MDC_PRESS_BLD_NONINV: Blood Pressure <span style=\"background: LightGoldenRodYellow; margin: 4px; border: 1px solid khaki\"> (<a href=\"https://loinc.org/\">LOINC</a>#85354-9 &quot;Blood pressure panel with all children optional&quot;; <a href=\"http://terminology.hl7.org/3.1.0/CodeSystem-v3-mdc.html\">ISO 11073-10101 Health informatics - Point-of-care</a>#150020 &quot;MDC_PRESS_BLD_NONINV&quot;; unknown#ZZ3170 &quot;Hjemmeblodtryksmåling udført af patienten&quot;)</span></p><p><b>subject</b>: <a href=\"#Patient_Poul\">See above (Patient/Poul)</a></p><p><b>effective</b>: 2023-02-23 10:24:08+0100</p><p><b>performer</b>: <a href=\"#Patient_Poul\">See above (Patient/Poul)</a></p><p><b>device</b>: <a href=\"#Device_BPMonitor.C4F312FFFE53F2C9\">See above (Device/BPMonitor.C4F312FFFE53F2C9)</a></p><p><b>derivedFrom</b>: <a href=\"#Observation_CoincidentTimeStamp.0222\">See above (Observation/CoincidentTimeStamp.0222)</a></p><blockquote><p><b>component</b></p><p><b>code</b>: MDC_PRESS_BLD_NONINV_SYS: Systolic Blood Pressure <span style=\"background: LightGoldenRodYellow; margin: 4px; border: 1px solid khaki\"> (<a href=\"https://loinc.org/\">LOINC</a>#8480-6 &quot;Systolic blood pressure&quot;; <a href=\"http://terminology.hl7.org/3.1.0/CodeSystem-v3-mdc.html\">ISO 11073-10101 Health informatics - Point-of-care</a>#150021 &quot;MDC_PRESS_BLD_NONINV_SYS&quot;; medcom-observation-codes#MCS88019 &quot;Arm—Blodtryk(systolisk) hjemme; tryk = ? mmHg&quot;)</span></p><p><b>value</b>: 118 mmHg<span style=\"background: LightGoldenRodYellow\"> (Details: UCUM code mm[Hg] = 'mm[Hg]')</span></p></blockquote><blockquote><p><b>component</b></p><p><b>code</b>: MDC_PRESS_BLD_NONINV_DIA: Diastolic Blood Pressure <span style=\"background: LightGoldenRodYellow; margin: 4px; border: 1px solid khaki\"> (<a href=\"https://loinc.org/\">LOINC</a>#8462-4 &quot;Diastolic blood pressure&quot;; <a href=\"http://terminology.hl7.org/3.1.0/CodeSystem-v3-mdc.html\">ISO 11073-10101 Health informatics - Point-of-care</a>#150022 &quot;MDC_PRESS_BLD_NONINV_DIA&quot;; medcom-observation-codes#MCS88020 &quot;Arm—Blodtryk(diastolisk) hjemme; tryk = ? mmHg&quot;)</span></p><p><b>value</b>: 87 mmHg<span style=\"background: LightGoldenRodYellow\"> (Details: UCUM code mm[Hg] = 'mm[Hg]')</span></p></blockquote><blockquote><p><b>component</b></p><p><b>code</b>: MDC_PRESS_BLD_NONINV_MEAN: Mean Blood Pressure <span style=\"background: LightGoldenRodYellow; margin: 4px; border: 1px solid khaki\"> (<a href=\"http://terminology.hl7.org/3.1.0/CodeSystem-v3-mdc.html\">ISO 11073-10101 Health informatics - Point-of-care</a>#150023 &quot;MDC_PRESS_BLD_NONINV_MEAN&quot;)</span></p><p><b>value</b>: 99 mmHg<span style=\"background: LightGoldenRodYellow\"> (Details: UCUM code mm[Hg] = 'mm[Hg]')</span></p></blockquote></div>"
      },
      "extension" : [{
        "url" : "http://hl7.org/fhir/StructureDefinition/observation-gatewayDevice",
        "valueReference" : {
          "reference" : "Device/Telma.FEEDDADADEADBEEF"
        }
      }],
      "identifier" : [{
        "value" : "C4F312FFFE53F2C9-3001749995-urn:oid:1.2.208.176.1.2-150020-118-266016-87-266016-99-266016-20230223T102408.00"
      }],
      "status" : "final",
      "category" : [{
        "coding" : [{
          "system" : "http://terminology.hl7.org/CodeSystem/observation-category",
          "code" : "vital-signs",
          "display" : "Vital signs"
        }]
      }],
      "code" : {
        "coding" : [{
          "system" : "http://loinc.org",
          "code" : "85354-9",
          "display" : "Blood pressure panel with all children optional"
        },
        {
          "system" : "urn:iso:std:iso:11073:10101",
          "code" : "150020",
          "display" : "MDC_PRESS_BLD_NONINV"
        },
        {
          "system" : "urn:oid:1.2.208.176.2.4",
          "code" : "ZZ3170",
          "display" : "Hjemmeblodtryksmåling udført af patienten"
        }],
        "text" : "MDC_PRESS_BLD_NONINV: Blood Pressure"
      },
      "subject" : {
        "reference" : "Patient/Poul"
      },
      "effectiveDateTime" : "2023-02-23T10:24:08+01:00",
      "performer" : [{
        "reference" : "Patient/Poul"
      }],
      "device" : {
        "reference" : "Device/BPMonitor.C4F312FFFE53F2C9"
      },
      "derivedFrom" : [{
        "reference" : "Observation/CoincidentTimeStamp.0222"
      }],
      "component" : [{
        "code" : {
          "coding" : [{
            "system" : "http://loinc.org",
            "code" : "8480-6",
            "display" : "Systolic blood pressure"
          },
          {
            "system" : "urn:iso:std:iso:11073:10101",
            "code" : "150021",
            "display" : "MDC_PRESS_BLD_NONINV_SYS"
          },
          {
            "system" : "http://medcomfhir.dk/ig/terminology/CodeSystem/medcom-observation-codes",
            "code" : "MCS88019",
            "display" : "Arm—Blodtryk(systolisk) hjemme; tryk = ? mmHg"
          }],
          "text" : "MDC_PRESS_BLD_NONINV_SYS: Systolic Blood Pressure"
        },
        "valueQuantity" : {
          "value" : 118,
          "unit" : "mmHg",
          "system" : "http://unitsofmeasure.org",
          "code" : "mm[Hg]"
        }
      },
      {
        "code" : {
          "coding" : [{
            "system" : "http://loinc.org",
            "code" : "8462-4",
            "display" : "Diastolic blood pressure"
          },
          {
            "system" : "urn:iso:std:iso:11073:10101",
            "code" : "150022",
            "display" : "MDC_PRESS_BLD_NONINV_DIA"
          },
          {
            "system" : "http://medcomfhir.dk/ig/terminology/CodeSystem/medcom-observation-codes",
            "code" : "MCS88020",
            "display" : "Arm—Blodtryk(diastolisk) hjemme; tryk = ? mmHg"
          }],
          "text" : "MDC_PRESS_BLD_NONINV_DIA: Diastolic Blood Pressure"
        },
        "valueQuantity" : {
          "value" : 87,
          "unit" : "mmHg",
          "system" : "http://unitsofmeasure.org",
          "code" : "mm[Hg]"
        }
      },
      {
        "code" : {
          "coding" : [{
            "system" : "urn:iso:std:iso:11073:10101",
            "code" : "150023",
            "display" : "MDC_PRESS_BLD_NONINV_MEAN"
          }],
          "text" : "MDC_PRESS_BLD_NONINV_MEAN: Mean Blood Pressure"
        },
        "valueQuantity" : {
          "value" : 99,
          "unit" : "mmHg",
          "system" : "http://unitsofmeasure.org",
          "code" : "mm[Hg]"
        }
      }]
    },
    "request" : {
      "method" : "POST",
      "url" : "Observation",
      "ifNoneExist" : "identifier=C4F312FFFE53F2C9-3001749995-urn:oid:1.2.208.176.1.2-150020-118-266016-87-266016-99-266016-20230223T102408.00"
    }
  },
  {
    "fullUrl" : "Observation/HeartRate.Poul.1974654",
    "resource" : {
      "resourceType" : "Observation",
      "id" : "HeartRate.Poul.1974654",
      "meta" : {
        "profile" : ["http://hl7.dk/fhir/core/StructureDefinition/dk-core-observation",
        "http://hl7.org/fhir/uv/phd/StructureDefinition/PhdNumericObservation",
        "http://hl7.org/fhir/StructureDefinition/vitalsigns",
        "http://hl7.org/fhir/StructureDefinition/heartrate"]
      },
      "text" : {
        "status" : "extensions",
        "div" : "<div xmlns=\"http://www.w3.org/1999/xhtml\"><p><b>Generated Narrative: Observation</b><a name=\"HeartRate.Poul.1974654\"> </a></p><div style=\"display: inline-block; background-color: #d9e0e7; padding: 6px; margin: 4px; border: 1px solid #8da1b4; border-radius: 5px; line-height: 60%\"><p style=\"margin-bottom: 0px\">Resource Observation &quot;HeartRate.Poul.1974654&quot; </p><p style=\"margin-bottom: 0px\">Profiles: <a href=\"StructureDefinition-dk-core-observation.html\">Danish Core Observation Profiles</a>, <a href=\"http://hl7.org/fhir/uv/phd/STU1/StructureDefinition-PhdNumericObservation.html\">PhdNumericObservation</a>, <a href=\"http://hl7.org/fhir/R4/vitalsigns.html\">Vital Signs Profile</a>, <a href=\"http://hl7.org/fhir/R4/heartrate.html\">Observation Heart Rate Profile</a></p></div><p><b>Gateway Device</b>: <a href=\"#Device_Telma.FEEDDADADEADBEEF\">See above (Device/Telma.FEEDDADADEADBEEF)</a></p><p><b>identifier</b>: id:\u00a0C4F312FFFE53F2C9-3001749995-urn:oid:1.2.208.176.1.2-149546-93-{beat}/min-20230223T102408.00</p><p><b>status</b>: final</p><p><b>category</b>: Vital signs <span style=\"background: LightGoldenRodYellow; margin: 4px; border: 1px solid khaki\"> (<a href=\"http://terminology.hl7.org/3.1.0/CodeSystem-observation-category.html\">Observation Category Codes</a>#vital-signs)</span></p><p><b>code</b>: MDC_PULS_RATE_NON_INV: Heart rate <span style=\"background: LightGoldenRodYellow; margin: 4px; border: 1px solid khaki\"> (<a href=\"https://loinc.org/\">LOINC</a>#8867-4 &quot;Heart rate&quot;; <a href=\"http://terminology.hl7.org/3.1.0/CodeSystem-v3-mdc.html\">ISO 11073-10101 Health informatics - Point-of-care</a>#149546 &quot;MDC_PULS_RATE_NON_INV&quot;; unknown#NPU21692 &quot;Heart—Systole; frequency = ? × 1/min&quot;)</span></p><p><b>subject</b>: <a href=\"#Patient_Poul\">See above (Patient/Poul)</a></p><p><b>effective</b>: 2023-02-23 10:24:08+0100</p><p><b>performer</b>: <a href=\"#Patient_Poul\">See above (Patient/Poul)</a></p><p><b>value</b>: 93 bpm<span style=\"background: LightGoldenRodYellow\"> (Details: UCUM code /min = '/min')</span></p><p><b>device</b>: <a href=\"#Device_BPMonitor.C4F312FFFE53F2C9\">See above (Device/BPMonitor.C4F312FFFE53F2C9)</a></p><p><b>derivedFrom</b>: <a href=\"#Observation_CoincidentTimeStamp.0222\">See above (Observation/CoincidentTimeStamp.0222)</a></p></div>"
      },
      "extension" : [{
        "url" : "http://hl7.org/fhir/StructureDefinition/observation-gatewayDevice",
        "valueReference" : {
          "reference" : "Device/Telma.FEEDDADADEADBEEF"
        }
      }],
      "identifier" : [{
        "value" : "C4F312FFFE53F2C9-3001749995-urn:oid:1.2.208.176.1.2-149546-93-{beat}/min-20230223T102408.00"
      }],
      "status" : "final",
      "category" : [{
        "coding" : [{
          "system" : "http://terminology.hl7.org/CodeSystem/observation-category",
          "code" : "vital-signs",
          "display" : "Vital signs"
        }]
      }],
      "code" : {
        "coding" : [{
          "system" : "http://loinc.org",
          "code" : "8867-4",
          "display" : "Heart rate"
        },
        {
          "system" : "urn:iso:std:iso:11073:10101",
          "code" : "149546",
          "display" : "MDC_PULS_RATE_NON_INV"
        },
        {
          "system" : "urn:oid:1.2.208.176.2.1",
          "code" : "NPU21692",
          "display" : "Heart—Systole; frequency = ? × 1/min"
        }],
        "text" : "MDC_PULS_RATE_NON_INV: Heart rate"
      },
      "subject" : {
        "reference" : "Patient/Poul"
      },
      "effectiveDateTime" : "2023-02-23T10:24:08+01:00",
      "performer" : [{
        "reference" : "Patient/Poul"
      }],
      "valueQuantity" : {
        "value" : 93,
        "unit" : "bpm",
        "system" : "http://unitsofmeasure.org",
        "code" : "/min"
      },
      "device" : {
        "reference" : "Device/BPMonitor.C4F312FFFE53F2C9"
      },
      "derivedFrom" : [{
        "reference" : "Observation/CoincidentTimeStamp.0222"
      }]
    },
    "request" : {
      "method" : "POST",
      "url" : "Observation",
      "ifNoneExist" : "identifier=C4F312FFFE53F2C9-3001749995-urn:oid:1.2.208.176.1.2-149546-93-{beat}/min-20230223T102408.00"
    }
  },
  {
    "fullUrl" : "Observation/BloodPressureStatus.Poul.133527",
    "resource" : {
      "resourceType" : "Observation",
      "id" : "BloodPressureStatus.Poul.133527",
      "meta" : {
        "profile" : ["http://hl7.dk/fhir/core/StructureDefinition/dk-core-observation",
        "http://hl7.org/fhir/uv/phd/StructureDefinition/PhdBitsEnumerationObservation"]
      },
      "text" : {
        "status" : "extensions",
        "div" : "<div xmlns=\"http://www.w3.org/1999/xhtml\"><p><b>Generated Narrative: Observation</b><a name=\"BloodPressureStatus.Poul.133527\"> </a></p><div style=\"display: inline-block; background-color: #d9e0e7; padding: 6px; margin: 4px; border: 1px solid #8da1b4; border-radius: 5px; line-height: 60%\"><p style=\"margin-bottom: 0px\">Resource Observation &quot;BloodPressureStatus.Poul.133527&quot; </p><p style=\"margin-bottom: 0px\">Profiles: <a href=\"StructureDefinition-dk-core-observation.html\">Danish Core Observation Profiles</a>, <a href=\"http://hl7.org/fhir/uv/phd/STU1/StructureDefinition-PhdBitsEnumerationObservation.html\">PhdBitsEnumerationObservation</a></p></div><p><b>Gateway Device</b>: <a href=\"#Device_Telma.FEEDDADADEADBEEF\">See above (Device/Telma.FEEDDADADEADBEEF)</a></p><p><b>identifier</b>: id:\u00a0C4F312FFFE53F2C9-3001749995-urn:oid:1.2.208.176.1.2-8410608-8192-20230223T102408.00</p><p><b>status</b>: final</p><p><b>code</b>: MDC_BLOOD_PRESSURE_MEASUREMENT_STATUS: Blood Pressure measurement problem <span style=\"background: LightGoldenRodYellow; margin: 4px; border: 1px solid khaki\"> (<a href=\"http://terminology.hl7.org/3.1.0/CodeSystem-v3-mdc.html\">ISO 11073-10101 Health informatics - Point-of-care</a>#8410608 &quot;MDC_BLOOD_PRESSURE_MEASUREMENT_STATUS&quot;)</span></p><p><b>subject</b>: <a href=\"#Patient_Poul\">See above (Patient/Poul)</a></p><p><b>effective</b>: 2023-02-23 10:24:08+0100</p><p><b>performer</b>: <a href=\"#Patient_Poul\">See above (Patient/Poul)</a></p><p><b>device</b>: <a href=\"#Device_BPMonitor.C4F312FFFE53F2C9\">See above (Device/BPMonitor.C4F312FFFE53F2C9)</a></p><p><b>derivedFrom</b>: </p><ul><li><a href=\"#Observation_CoincidentTimeStamp.0222\">See above (Observation/CoincidentTimeStamp.0222)</a></li><li><a href=\"#Observation_BloodPressure.Poul.643992\">See above (Observation/BloodPressure.Poul.643992)</a></li></ul><h3>Components</h3><table class=\"grid\"><tr><td style=\"display: none\">-</td><td><b>Code</b></td><td><b>Value[x]</b></td></tr><tr><td style=\"display: none\">*</td><td>irregular-pulse <span style=\"background: LightGoldenRodYellow; margin: 4px; border: 1px solid khaki\"> (<a href=\"http://hl7.org/fhir/uv/phd/STU1/CodeSystem-ASN1ToHL7.html\">ASN1ToHL7</a>#8410608.2)</span></td><td>Irregular pulse was detected <span style=\"background: LightGoldenRodYellow; margin: 4px; border: 1px solid khaki\"> (<a href=\"http://hl7.org/fhir/R4/v2/0136/index.html\">v2 Y/N Indicator</a>#Y)</span></td></tr></table></div>"
      },
      "extension" : [{
        "url" : "http://hl7.org/fhir/StructureDefinition/observation-gatewayDevice",
        "valueReference" : {
          "reference" : "Device/Telma.FEEDDADADEADBEEF"
        }
      }],
      "identifier" : [{
        "value" : "C4F312FFFE53F2C9-3001749995-urn:oid:1.2.208.176.1.2-8410608-8192-20230223T102408.00"
      }],
      "status" : "final",
      "code" : {
        "coding" : [{
          "system" : "urn:iso:std:iso:11073:10101",
          "code" : "8410608",
          "display" : "MDC_BLOOD_PRESSURE_MEASUREMENT_STATUS"
        }],
        "text" : "MDC_BLOOD_PRESSURE_MEASUREMENT_STATUS: Blood Pressure measurement problem"
      },
      "subject" : {
        "reference" : "Patient/Poul"
      },
      "effectiveDateTime" : "2023-02-23T10:24:08+01:00",
      "performer" : [{
        "reference" : "Patient/Poul"
      }],
      "device" : {
        "reference" : "Device/BPMonitor.C4F312FFFE53F2C9"
      },
      "derivedFrom" : [{
        "reference" : "Observation/CoincidentTimeStamp.0222"
      },
      {
        "reference" : "Observation/BloodPressure.Poul.643992"
      }],
      "component" : [{
        "code" : {
          "coding" : [{
            "system" : "http://hl7.org/fhir/uv/phd/CodeSystem/ASN1ToHL7",
            "code" : "8410608.2"
          }],
          "text" : "irregular-pulse"
        },
        "valueCodeableConcept" : {
          "coding" : [{
            "system" : "http://terminology.hl7.org/CodeSystem/v2-0136",
            "code" : "Y"
          }],
          "text" : "Irregular pulse was detected"
        }
      }]
    },
    "request" : {
      "method" : "POST",
      "url" : "Observation",
      "ifNoneExist" : "identifier=C4F312FFFE53F2C9-3001749995-urn:oid:1.2.208.176.1.2-8410608-8192-20230223T102408.00"
    }
  }]
}