{
  "resourceType" : "DocumentReference",
  "id" : "94e65db8-2f0c-4a2c-a7c9-06a160d59a12",
  "meta" : {
    "profile" : ["http://hl7.dk/fhir/core/StructureDefinition/dk-core-minimaldocumentreference"]
  },
  "text" : {
    "status" : "extensions",
    "div" : "<div xmlns=\"http://www.w3.org/1999/xhtml\"><p class=\"res-header-id\"><b>Generated Narrative: DocumentReference 94e65db8-2f0c-4a2c-a7c9-06a160d59a12</b></p><a name=\"94e65db8-2f0c-4a2c-a7c9-06a160d59a12\"> </a><a name=\"hc94e65db8-2f0c-4a2c-a7c9-06a160d59a12\"> </a><div style=\"display: inline-block; background-color: #d9e0e7; padding: 6px; margin: 4px; border: 1px solid #8da1b4; border-radius: 5px; line-height: 60%\"><p style=\"margin-bottom: 0px\"/><p style=\"margin-bottom: 0px\">Profile: <a href=\"StructureDefinition-dk-core-minimaldocumentreference.html\">Danish Core Minimal DocumentReference Profile</a></p></div><p><b>Extension Definition for DocumentReference.version for Version 5.0</b>: 1.0.0</p><p><b>masterIdentifier</b>: <a href=\"http://terminology.hl7.org/6.3.0/NamingSystem-uri.html\" title=\"As defined by RFC 3986 (http://www.ietf.org/rfc/rfc3986.txt)(with many schemes defined in many RFCs). For OIDs and UUIDs, use the URN form (urn:oid:(note: lowercase) and urn:uuid:). See http://www.ietf.org/rfc/rfc3001.txt and http://www.ietf.org/rfc/rfc4122.txt \r\n\r\nThis oid is used as an identifier II.root to indicate the the extension is an absolute URI (technically, an IRI). Typically, this is used for OIDs and GUIDs. Note that when this OID is used with OIDs and GUIDs, the II.extension should start with urn:oid or urn:uuid: \r\n\r\nNote that this OID is created to aid with interconversion between CDA and FHIR - FHIR uses urn:ietf:rfc:3986 as equivalent to this OID. URIs as identifiers appear more commonly in FHIR.\r\n\r\nThis OID may also be used in CD.codeSystem.\">Uniform Resource Identifier (URI)</a>/urn:uuid:bf1bb63b-d405-4dfe-9810-37b16b333a01\u00a0(use:\u00a0usual,\u00a0)</p><p><b>status</b>: Current</p><p><b>type</b>: <span title=\"Codes:{http://loinc.org 56446-8}\">Appointment Summary Document</span></p><p><b>category</b>: <span title=\"Codes:{urn:oid:1.2.208.184.100.9 001}\">Klinisk rapport</span></p><p><b>subject</b>: <a href=\"#hc94e65db8-2f0c-4a2c-a7c9-06a160d59a12/37628912-7816-47a3-acd8-396b610be142\">Else Test Lauridsen (official) Kvinde, DoB: 1991-01-02 ( urn:oid:1.2.208.176.1.2#0201919990)</a></p><p><b>author</b>: <a href=\"#hc94e65db8-2f0c-4a2c-a7c9-06a160d59a12/8fa7df76-bec2-4fe2-9a44-750030a0eda0\">Organization Lægerne Hasseris Bymidte</a></p><p><b>authenticator</b>: <a href=\"#hc94e65db8-2f0c-4a2c-a7c9-06a160d59a12/42cb9200-f421-4d08-8391-7d51a2503cb4\">Practitioner Sidsel Andersen </a></p><p><b>securityLabel</b>: <span title=\"Codes:\">N</span></p><blockquote><p><b>content</b></p><h3>Attachments</h3><table class=\"grid\"><tr><td style=\"display: none\">-</td><td><b>ContentType</b></td><td><b>Language</b></td><td><b>Url</b></td><td><b>Size</b></td><td><b>Hash</b></td><td><b>Title</b></td><td><b>Creation</b></td></tr><tr><td style=\"display: none\">*</td><td>text/xml</td><td>Danish</td><td>DOC001.XML</td><td>3654</td><td><code>ZGEzOWEzZWU1ZTZiNGIwZDMyNTViZmVmOTU2MDE4OTBhZmQ4MDcwOQ==</code></td><td>Aftale for 0201919990</td><td>2023-09-08 13:28:17+0100</td></tr></table><p><b>format</b>: unknown: urn:ad:dk:medcom:apd-v2.0.1:full (DK APD schema)</p></blockquote><h3>Contexts</h3><table class=\"grid\"><tr><td style=\"display: none\">-</td><td><b>Event</b></td><td><b>FacilityType</b></td><td><b>PracticeSetting</b></td><td><b>SourcePatientInfo</b></td></tr><tr><td style=\"display: none\">*</td><td><span title=\"Codes:{urn:oid:1.2.208.176.2.4 ALAL03}\">Psykiske lidelser og adfærdsmæssige forstyrrelser</span></td><td><span title=\"Codes:{http://snomed.info/sct 554871000005105}\">psykiatri</span></td><td><span title=\"Codes:{http://snomed.info/sct 394588006}\">børne- og ungdomspsykiatri</span></td><td><a href=\"#hc94e65db8-2f0c-4a2c-a7c9-06a160d59a12/37628912-7816-47a3-acd8-396b610be142\">Else Test Lauridsen (official) Kvinde, DoB: 1991-01-02 ( urn:oid:1.2.208.176.1.2#0201919990)</a></td></tr></table><hr/><blockquote><p class=\"res-header-id\"><b>Generated Narrative: Practitioner #42cb9200-f421-4d08-8391-7d51a2503cb4</b></p><a name=\"94e65db8-2f0c-4a2c-a7c9-06a160d59a12/42cb9200-f421-4d08-8391-7d51a2503cb4\"> </a><a name=\"hc94e65db8-2f0c-4a2c-a7c9-06a160d59a12/42cb9200-f421-4d08-8391-7d51a2503cb4\"> </a><div style=\"display: inline-block; background-color: #d9e0e7; padding: 6px; margin: 4px; border: 1px solid #8da1b4; border-radius: 5px; line-height: 60%\"><p style=\"margin-bottom: 0px\"/><p style=\"margin-bottom: 0px\">Profile: <a href=\"StructureDefinition-dk-core-practitioner.html\">Danish Core Practitioner Profile</a></p></div><p><b>name</b>: Sidsel Andersen </p></blockquote><hr/><blockquote><p class=\"res-header-id\"><b>Generated Narrative: Organization #8fa7df76-bec2-4fe2-9a44-750030a0eda0</b></p><a name=\"94e65db8-2f0c-4a2c-a7c9-06a160d59a12/8fa7df76-bec2-4fe2-9a44-750030a0eda0\"> </a><a name=\"hc94e65db8-2f0c-4a2c-a7c9-06a160d59a12/8fa7df76-bec2-4fe2-9a44-750030a0eda0\"> </a><div style=\"display: inline-block; background-color: #d9e0e7; padding: 6px; margin: 4px; border: 1px solid #8da1b4; border-radius: 5px; line-height: 60%\"><p style=\"margin-bottom: 0px\"/><p style=\"margin-bottom: 0px\">Profile: <a href=\"StructureDefinition-dk-core-organization.html\">Danish Core Organization Profile</a></p></div><p><b>identifier</b>: <code>urn:oid:1.2.208.176.1.1</code>/61741000016007</p><p><b>name</b>: Lægerne Hasseris Bymidte</p></blockquote><hr/><blockquote><p class=\"res-header-id\"><b>Generated Narrative: Patient #37628912-7816-47a3-acd8-396b610be142</b></p><a name=\"94e65db8-2f0c-4a2c-a7c9-06a160d59a12/37628912-7816-47a3-acd8-396b610be142\"> </a><a name=\"hc94e65db8-2f0c-4a2c-a7c9-06a160d59a12/37628912-7816-47a3-acd8-396b610be142\"> </a><div style=\"display: inline-block; background-color: #d9e0e7; padding: 6px; margin: 4px; border: 1px solid #8da1b4; border-radius: 5px; line-height: 60%\"><p style=\"margin-bottom: 0px\"/><p style=\"margin-bottom: 0px\">Profile: <a href=\"StructureDefinition-dk-core-patient.html\">Danish Core Patient Profile</a></p></div><p style=\"border: 1px #661aff solid; background-color: #e6e6ff; padding: 10px;\">Else Test Lauridsen (official) Kvinde, DoB: 1991-01-02 ( urn:oid:1.2.208.176.1.2#0201919990)</p><hr/></blockquote></div>"
  },
  "contained" : [{
    "resourceType" : "Practitioner",
    "id" : "42cb9200-f421-4d08-8391-7d51a2503cb4",
    "meta" : {
      "profile" : ["http://hl7.dk/fhir/core/StructureDefinition/dk-core-practitioner"]
    },
    "name" : [{
      "family" : "Andersen",
      "given" : ["Sidsel"]
    }]
  },
  {
    "resourceType" : "Organization",
    "id" : "8fa7df76-bec2-4fe2-9a44-750030a0eda0",
    "meta" : {
      "profile" : ["http://hl7.dk/fhir/core/StructureDefinition/dk-core-organization"]
    },
    "identifier" : [{
      "system" : "urn:oid:1.2.208.176.1.1",
      "value" : "61741000016007"
    }],
    "name" : "Lægerne Hasseris Bymidte"
  },
  {
    "resourceType" : "Patient",
    "id" : "37628912-7816-47a3-acd8-396b610be142",
    "meta" : {
      "profile" : ["http://hl7.dk/fhir/core/StructureDefinition/dk-core-patient"]
    },
    "identifier" : [{
      "system" : "urn:oid:1.2.208.176.1.2",
      "value" : "0201919990"
    }],
    "name" : [{
      "use" : "official",
      "family" : "Lauridsen",
      "given" : ["Else",
      "Test"]
    }],
    "gender" : "female",
    "birthDate" : "1991-01-02"
  }],
  "extension" : [{
    "url" : "http://hl7.org/fhir/5.0/StructureDefinition/extension-DocumentReference.version",
    "valueString" : "1.0.0"
  }],
  "masterIdentifier" : {
    "use" : "usual",
    "system" : "urn:ietf:rfc:3986",
    "value" : "urn:uuid:bf1bb63b-d405-4dfe-9810-37b16b333a01"
  },
  "status" : "current",
  "type" : {
    "coding" : [{
      "system" : "http://loinc.org",
      "code" : "56446-8",
      "display" : "Appointment Summary Document"
    }]
  },
  "category" : [{
    "coding" : [{
      "system" : "urn:oid:1.2.208.184.100.9",
      "code" : "001",
      "display" : "Klinisk rapport"
    }]
  }],
  "subject" : {
    "reference" : "#37628912-7816-47a3-acd8-396b610be142"
  },
  "author" : [{
    "reference" : "#8fa7df76-bec2-4fe2-9a44-750030a0eda0"
  }],
  "authenticator" : {
    "reference" : "#42cb9200-f421-4d08-8391-7d51a2503cb4"
  },
  "securityLabel" : [{
    "coding" : [{
      "code" : "N"
    }]
  }],
  "content" : [{
    "attachment" : {
      "contentType" : "text/xml",
      "language" : "da",
      "url" : "DOC001.XML",
      "size" : 3654,
      "hash" : "ZGEzOWEzZWU1ZTZiNGIwZDMyNTViZmVmOTU2MDE4OTBhZmQ4MDcwOQ==",
      "title" : "Aftale for 0201919990",
      "creation" : "2023-09-08T13:28:17+01:00"
    },
    "format" : {
      "system" : "urn:oid:1.2.208.184.100.10",
      "code" : "urn:ad:dk:medcom:apd-v2.0.1:full",
      "display" : "DK APD schema"
    }
  }],
  "context" : {
    "event" : [{
      "coding" : [{
        "system" : "urn:oid:1.2.208.176.2.4",
        "code" : "ALAL03",
        "display" : "Psykiske lidelser og adfærdsmæssige forstyrrelser"
      }]
    }],
    "facilityType" : {
      "coding" : [{
        "system" : "http://snomed.info/sct",
        "version" : "http://snomed.info/sct/554471000005108",
        "code" : "554871000005105",
        "display" : "psykiatri"
      }]
    },
    "practiceSetting" : {
      "coding" : [{
        "system" : "http://snomed.info/sct",
        "version" : "http://snomed.info/sct/554471000005108",
        "code" : "394588006",
        "display" : "børne- og ungdomspsykiatri"
      }]
    },
    "sourcePatientInfo" : {
      "reference" : "#37628912-7816-47a3-acd8-396b610be142"
    }
  }
}